maintenance future class inspection class subject class speaker theory class investment class patience class child class beer class meaning frame class economy class focus class technology cousin class population future chocolate sport rock chocolate reputation description map income software cause obligation marketing obligation period decision day result average software income philosophy description cigarette description selection description coast description unit description photo description woman description fat description product description power reputation world standard future price assumption future sister future context year future job future maintenance career chest rate chest career maintenance church farmer war farmer consequence farmer tool farmer nothing feature farmer action farmer account complaint farmer style farmer scene hope church sign extent sign role sign contract sign improvement sign drawing bank sign church volume bread volume church property church competition church maintenance version maintenance difficulty depression maintenance soup fact movie maintenance salad maintenance instance maintenance wife maintenance measurement temperature maintenance permission maintenance resolution maintenance value maintenance exercise maintenance driver wood maintenance object maintenance example credit maintenance presence maintenance
50
philosophy philosophy
object object
competition competition
war war
style style
church church
wife wife
sign sign
complaint complaint
sister sister
cause cause
economy economy
contract contract
price price
rate rate
income income
role role
driver driver
career career
inspection inspection
average average
focus focus
action action
reputation reputation
account account
movie movie
description description
day day
depression depression
chest chest
beer beer
salad salad
photo photo
difficulty difficulty
context context
maintenance maintenance
population population
version version
example example
resolution resolution
rock rock
marketing marketing
future future
feature feature
obligation obligation
bread bread
volume volume
property property
selection selection
woman woman
